File: web/SpectraKeras-web/samples/Albite_xrd.txt
  5.000000	  0.000000
  5.060000	  4.361488
  5.120000	  2.370178
  5.180000	  1.439102
  5.240000	 14.9813
  5.300000	  1.087151
  5.360000	  5.901146
  5.420000	  4.942411
  5.480000	  1.960384
  5.540000	 14.225
  5.600000	  9.436855
  5.660000	  6.680611
  5.720000	 10.926
  5.780000	  8.185884
  5.840000	 18.4369
  5.900000	  4.698433
  5.960000	  6.445639
  6.020000	 15.7825
  6.080000	 17.0324
  6.140000	 16.4741
  6.200000	  9.880867
  6.260000	  7.278923
  6.320000	 16.5446
  6.380000	 10.796
  6.440000	 11.0658
  6.500000	  6.242220
  6.560000	 20.5206
  6.620000	  9.011559
  6.680000	  6.184738
  6.740000	  6.476582
  6.800000	  0.769993
  6.860000	  6.058044
  6.920000	  4.591308
  6.980000	 16.6913
  7.040000	  9.078038
  7.100000	 10.3965
  7.160000	  3.679593
  7.220000	 10.9497
  7.280000	  4.208483
  7.340000	  7.464676
  7.400000	  4.710464
  7.460000	  7.942463
  7.520000	 10.4682
  7.580000	  0.692364
  7.640000	  0.259892
  7.700000	 14.4773
  7.760000	  1.685820
  7.820000	  5.896964
  7.880000	  7.095269
  7.940000	  3.286766
  8.000000	  9.473325
  8.060000	  3.653081
  8.120000	  4.433532
  8.180000	  0.705142
  8.240000	  2.864700
  8.300000	  5.014334
  8.360000	  9.272575
  8.420000	 11.4112
  8.480000	  2.355061
  8.540000	  2.465044
  8.600000	 11.4908
  8.660000	  1.469498
  8.720000	 10.6295
  8.780000	  3.237253
  8.840000	 10.8189
  8.900000	  0.890146
  8.960000	  0.991880
  9.020000	  2.859138
  9.080000	  8.914045
  9.140000	 11.0031
  9.200000	 14.0873
  9.260000	  3.144360
  9.320000	  8.141279
  9.380000	  8.185516
  9.440000	  6.136441
  9.500000	  1.234272
  9.560000	  7.265223
  9.620000	  2.291823
  9.680000	  3.325445
  9.740000	  5.356449
  9.800000	 15.5383
  9.860000	  4.576406
  9.920000	  1.336649
  9.980000	  6.148342
 10.04	  7.136505
 10.1	  5.366375
 10.16	  1.389732
 10.22	  6.418422
 10.28	 11.4443
 10.34	  4.493214
 10.4	  7.596527
 10.46	 16.7056
 10.52	 11.7283
 10.58	  5.581985
 10.64	 13.6033
 10.7	  2.622335
 10.76	  4.547760
 10.82	  3.562495
 10.88	 10.6705
 10.94	  2.283801
 11	  0.721905
 11.06	 11.9524
 11.12	  4.907864
 11.18	  9.870556
 11.24	  5.882675
 11.3	  2.993116
 11.36	  4.947073
 11.42	  3.942153
 11.48	 11.9342
 11.54	  2.891493
 11.6	  0.842635
 11.66	 11.9148
 11.72	 12.9072
 11.78	 13.8839
 11.84	  3.857822
 11.9	  4.766247
 11.96	  1.737556
 12.02	  8.799836
 12.08	  2.826534
 12.14	  1.645321
 12.2	  3.385935
 12.26	  6.571547
 12.32	  5.513191
 12.38	  1.515186
 12.44	  1.603841
 12.5	 13.1484
 12.56	  5.105105
 12.62	  2.061005
 12.68	  1.016117
 12.74	  9.949458
 12.8	  4.818740
 12.86	  6.685988
 12.92	  8.639443
 12.98	  2.568498
 13.04	 10.5212
 13.1	  7.474888
 13.16	  9.401163
 13.22	  0.404094
 13.28	  5.452545
 13.34	  3.559883
 13.4	  6.286493
 13.46	  4.309383
 13.52	  3.390273
 13.58	 16.4795
 13.64	  2.324741
 13.7	  5.289072
 13.76	 10.2557
 13.82	 25.2227
 13.88	145.193
 13.94	156.163
 14	 39.139
 14.06	 29.141
 14.12	 19.1044
 14.18	  1.090220
 14.24	 15.0797
 14.3	  6.046547
 14.36	  5.044277
 14.42	  3.920029
 14.48	  3.885100
 14.54	  9.876703
 14.6	  1.908589
 14.66	  3.909571
 14.72	  6.907415
 14.78	  3.869449
 14.84	  5.871912
 14.9	  9.879535
 14.96	 27.8898
 15.02	 45.9171
 15.08	 11.9344
 15.14	  8.963092
 15.2	  1.989775
 15.26	  4.016669
 15.32	  9.044065
 15.38	  4.074155
 15.44	  1.266928
 15.5	  6.302822
 15.56	 13.3396
 15.62	  3.141241
 15.68	  6.223501
 15.74	 14.1763
 15.8	  9.317479
 15.86	 30.3487
 15.92	 25.2786
 15.98	  0.470470
 16.04	  2.529082
 16.1	  4.588769
 16.16	  2.650693
 16.22	 14.7196
 16.28	  5.975163
 16.34	  6.036600
 16.4	  8.101587
 16.46	 13.0527
 16.52	  4.121592
 16.58	 10.1875
 16.64	  5.302578
 16.7	 10.3607
 16.76	  8.468171
 16.82	  0.467212
 16.88	  3.595552
 16.94	  1.340683
 17	  9.678711
 17.06	  1.839497
 17.12	  2.897098
 17.18	  3.946805
 17.24	  1.991990
 17.3	  3.036533
 17.36	  0.139424
 17.42	  8.221995
 17.48	  3.258119
 17.54	  8.291247
 17.6	  6.379028
 17.66	  2.413363
 17.72	  7.441605
 17.78	  0.532882
 17.84	 11.3341
 17.9	  2.483144
 17.96	  9.504690
 18.02	  8.483162
 18.08	  9.496943
 18.14	  4.327806
 18.2	  5.344493
 18.26	  5.307552
 18.32	  0.394652
 18.38	  6.128604
 18.44	  3.129235
 18.5	  0.791145
 18.56	  1.195070
 18.62	  9.238258
 18.68	  5.034841
 18.74	  6.177370
 18.8	 11.1618
 18.86	  3.136009
 18.92	  2.106306
 18.98	  3.025278
 19.04	  4.991879
 19.1	  0.035300
 19.16	  3.015083
 19.22	  4.051732
 19.28	  5.088217
 19.34	  3.320411
 19.4	 15.271
 19.46	  4.112731
 19.52	  8.052172
 19.58	  5.993938
 19.64	  8.016443
 19.7	  5.891134
 19.76	  8.905069
 19.82	  3.853846
 19.88	  7.881283
 19.94	 15.7822
 20	  6.695843
 20.06	  7.588795
 20.12	  7.483282
 20.18	  5.376635
 20.24	  0.364352
 20.3	 10.2262
 20.36	  7.119961
 20.42	  0.992847
 20.48	 13.8849
 20.54	  1.756401
 20.6	  4.623890
 20.66	  5.489967
 20.72	  4.271048
 20.78	  0.131369
 20.84	  3.983640
 20.9	  4.750650
 20.96	  5.597003
 21.02	  3.391005
 21.08	  6.233442
 21.14	  4.915401
 21.2	  1.747468
 21.26	  8.581116
 21.32	 13.5537
 21.38	  3.403319
 21.44	 13.5106
 21.5	  0.432081
 21.56	  0.282557
 21.62	  3.049741
 21.68	  9.872877
 21.74	  6.906436
 21.8	  6.729914
 21.86	 18.5537
 21.92	 16.3779
 21.98	 53.199
 22.04	206.949
 22.1	391.819
 22.16	207.56
 22.22	 33.7304
 22.28	 22.4597
 22.34	 22.3058
 22.4	  9.095230
 22.46	 12.968
 22.52	  7.841906
 22.58	  3.279651
 22.64	  5.501072
 22.7	  5.275068
 22.76	 13.1533
 22.82	  3.031277
 22.88	 10.9157
 22.94	  4.792458
 23	 12.6688
 23.06	 53.5504
 23.12	100.438
 23.18	 42.3301
 23.24	 21.2305
 23.3	  9.136484
 23.36	 15.048
 23.42	 20.9504
 23.48	 46.8907
 23.54	283.816
 23.6	259.282
 23.66	 91.4784
 23.72	 22.4007
 23.78	 10.6195
 23.84	 20.5536
 23.9	  4.438034
 23.96	  4.257978
 24.02	  5.139572
 24.08	 17.1306
 24.14	 83.6343
 24.2	137.632
 24.26	132.636
 24.32	218.646
 24.38	202.66
 24.44	 72.6771
 24.5	 25.6665
 24.56	 15.7055
 24.62	  0.636478
 24.68	  2.629147
 24.74	  4.134451
 24.8	  4.110350
 24.86	  8.896732
 24.92	  3.472115
 24.98	  0.630428
 25.04	 11.7056
 25.1	  2.688738
 25.16	  4.674007
 25.22	 25.6615
 25.28	 20.6466
 25.34	 12.6409
 25.4	 75.6342
 25.46	 70.8057
 25.52	 43.7942
 25.58	 39.7846
 25.64	 19.0246
 25.7	 11.2113
 25.76	  3.461527
 25.82	  2.562301
 25.88	  1.502607
 25.94	  4.192980
 26	  7.611088
 26.06	 10.559
 26.12	  4.395025
 26.18	  3.830408
 26.24	  2.688551
 26.3	 12.5891
 26.36	 19.4899
 26.42	 88.391
 26.48	 72.2929
 26.54	 27.1974
 26.6	 10.1103
 26.66	  4.025463
 26.72	  0.061550
 26.78	  8.855480
 26.84	  2.779675
 26.9	  2.304686
 26.96	  1.595871
 27.02	  1.249340
 27.08	  6.997311
 27.14	  2.875565
 27.2	 20.8084
 27.26	  3.757225
 27.32	 12.1471
 27.38	  6.955885
 27.44	 14.8482
 27.5	 23.837
 27.56	 26.8334
 27.62	 31.8377
 27.68	 64.9387
 27.74	407.954
 27.8	282.455
 27.86	211.442
 27.92	809.482
 27.98	945.79
 28.04	684.901
 28.1	379.728
 28.16	238.819
 28.22	156.853
 28.28	 99.8239
 28.34	220.244
 28.4	144.489
 28.46	 83.7762
 28.52	 31.884
 28.58	 19.9882
 28.64	  8.098394
 28.7	  4.209908
 28.76	  3.471012
 28.82	 11.5844
 28.88	  6.696875
 28.94	  5.193333
 29	  7.897173
 29.06	  0.019562
 29.12	  0.936542
 29.18	  2.862222
 29.24	  3.194913
 29.3	  9.253914
 29.36	  2.316879
 29.42	  1.374723
 29.48	  1.438942
 29.54	  3.495568
 29.6	  1.454481
 29.66	  7.584633
 29.72	  6.764460
 29.78	 10.795
 29.84	  6.825022
 29.9	  2.854650
 29.96	  4.878672
 30.02	 14.9104
 30.08	 19.8525
 30.14	129.554
 30.2	108.449
 30.26	127.337
 30.32	 63.3127
 30.38	 39.9705
 30.44	 31.8929
 30.5	129.856
 30.56	230.756
 30.62	112.829
 30.68	 48.2473
 30.74	 20.981
 30.8	 16.7912
 30.86	  1.776617
 30.92	 14.8292
 30.98	  6.917295
 31.04	  8.009791
 31.1	  6.106319
 31.16	 14.4178
 31.22	 71.602
 31.28	 57.8331
 31.34	 51.0345
 31.4	 16.3021
 31.46	 15.5216
 31.52	 21.6607
 31.58	  7.993753
 31.64	  4.267510
 31.7	  5.539755
 31.76	 13.8162
 31.82	  2.018900
 31.88	  0.246999
 31.94	  6.411463
 32	  1.579307
 32.06	  9.750459
 32.12	 10.7795
 32.18	  0.980486
 32.24	  7.164209
 32.3	  9.346719
 32.36	  0.440217
 32.42	  6.738661
 32.48	  7.895489
 32.54	  5.042752
 32.6	  0.181446
 32.66	  4.308790
 32.72	  0.570973
 32.78	 12.5367
 32.84	 13.6334
 32.9	 11.6948
 32.96	  1.758790
 33.02	  9.705306
 33.08	  7.660292
 33.14	  5.083418
 33.2	 12.1327
 33.26	  7.297362
 33.32	 10.3414
 33.38	  9.683928
 33.44	  4.778434
 33.5	  0.807000
 33.56	  6.492031
 33.62	  1.461747
 33.68	 10.4215
 33.74	 13.3288
 33.8	  6.162550
 33.86	  7.071920
 33.92	 24.9842
 33.98	 52.8332
 34.04	 39.6846
 34.1	 18.5756
 34.16	 10.4264
 34.22	  7.387380
 34.28	  5.764372
 34.34	  4.425409
 34.4	  2.371467
 34.46	  3.437023
 34.52	  5.434727
 34.58	  3.401237
 34.64	  5.303025
 34.7	 10.187
 34.76	  6.068862
 34.82	  4.953695
 34.88	  8.857499
 34.94	 11.7612
 35	 49.6676
 35.06	 55.5776
 35.12	 48.6288
 35.18	 18.5484
 35.24	 14.4719
 35.3	  8.557154
 35.36	 21.4835
 35.42	  5.412795
 35.48	 10.0117
 35.54	 11.9435
 35.6	  7.869088
 35.66	 11.68
 35.72	  1.382715
 35.78	  4.260563
 35.84	  1.156001
 35.9	  6.116552
 35.96	  5.017010
 36.02	  9.994248
 36.08	  7.896753
 36.14	  7.885790
 36.2	  9.880389
 36.26	  5.880466
 36.32	  3.882938
 36.38	  0.113937
 36.44	  6.894415
 36.5	  9.864829
 36.56	 11.8757
 36.62	 13.8922
 36.68	  6.915577
 36.74	  7.699393
 36.8	 52.7315
 36.86	 34.9288
 36.92	 31.3246
 36.98	 32.8035
 37.04	 18.0154
 37.1	 17.1083
 37.16	  6.204763
 37.22	  0.349524
 37.28	 13.4522
 37.34	 26.5583
 37.4	 18.6661
 37.46	 21.7758
 37.52	 12.7479
 37.58	 10.863
 37.64	  9.988514
 37.7	 34.9544
 37.76	 20.0842
 37.82	 22.2151
 37.88	 24.1904
 37.94	  8.326046
 38	  4.403327
 38.06	  0.723094
 38.12	  1.022122
 38.18	  0.319167
 38.24	 14.4931
 38.3	  2.565915
 38.36	 12.6357
 38.42	 13.7015
 38.48	 13.7651
 38.54	  9.865290
 38.6	  6.923153
 38.66	 10.9791
 38.72	 28.2632
 38.78	 24.4796
 38.84	 38.5695
 38.9	 28.6248
 38.96	 15.6747
 39.02	 12.7198
 39.08	  3.761845
 39.14	  6.801501
 39.2	  3.548572
 39.26	 11.5709
 39.32	  9.028218
 39.38	  0.694241
 39.44	  6.562124
 39.5	  6.547264
 39.56	 20.5457
 39.62	  5.562330
 39.68	 21.5408
 39.74	  2.538692
 39.8	  4.533973
 39.86	  6.591640
 39.92	  2.566273
 39.98	  0.260919
 40.04	  1.687696
 40.1	  5.633266
 40.16	 17.5759
 40.22	 16.5158
 40.28	 11.4531
 40.34	  6.387892
 40.4	 10.1904
 40.46	 10.2966
 40.52	  7.101548
 40.58	  3.808633
 40.64	  4.793550
 40.7	  9.761794
 40.76	  8.729608
 40.82	  5.697503
 40.88	  6.662374
 40.94	  3.892937
 41	  3.856191
 41.06	  1.875572
 41.12	  8.605450
 41.18	  5.361525
 41.24	 19.3093
 41.3	 20.2583
 41.36	 29.2091
 41.42	 17.1613
 41.48	  6.115151
 41.54	  3.074319
 41.6	  0.956874
 41.66	 13.0113
 41.72	  1.977622
 41.78	  0.045820
 41.84	  0.228308
 41.9	  0.216899
 41.96	  5.197170
 42.02	  4.113194
 42.08	  4.110971
 42.14	  1.083342
 42.2	  2.052599
 42.26	  2.956545
 42.32	  5.941193
 42.38	  7.723551
 42.44	  6.726059
 42.5	 39.7315
 42.56	 69.7383
 42.62	 35.7465
 42.68	 35.7558
 42.74	 42.0277
 42.8	 23.0607
 42.86	 21.9922
 42.92	  6.004658
 42.98	  2.849898
 43.04	  0.395202
 43.1	  0.487782
 43.16	  5.722118
 43.22	  8.720234
 43.28	 26.7189
 43.34	 15.4115
 43.4	  8.410132
 43.46	 10.3511
 43.52	  7.531769
 43.58	 71.5382
 43.64	 78.662
 43.7	 39.6671
 43.76	 25.6722
 43.82	  3.676148
 43.88	  8.679331
 43.94	  0.329385
 44	  6.655256
 44.06	  3.712045
 44.12	  9.700386
 44.18	  3.507038
 44.24	  0.625235
 44.3	  3.655494
 44.36	 11.3007
 44.42	  3.259262
 44.48	  7.222242
 44.54	 14.1937
 44.6	  3.172793
 44.66	  6.154218
 44.72	  6.136242
 44.78	  2.111820
 44.84	  8.083731
 44.9	  1.054104
 44.96	  8.037001
 45.02	 16.0087
 45.08	  3.982043
 45.14	 10.6587
 45.2	 12.6059
 45.26	 11.5543
 45.32	 14.7839
 45.38	  6.643181
 45.44	 13.4094
 45.5	 25.1331
 45.56	  8.141153
 45.62	  8.254856
 45.68	  3.494792
 45.74	 15.6504
 45.8	  6.665651
 45.86	 13.7223
 45.92	 20.6011
 45.98	 13.6182
 46.04	 14.5179
 46.1	  0.462763
 46.16	  9.561338
 46.22	  4.590885
 46.28	  6.659866
 46.34	  5.701301
 46.4	  1.812862
 46.46	  6.107782
 46.52	  4.329399
 46.58	  4.414423
 46.64	  0.461757
 46.7	  5.508384
 46.76	  2.557415
 46.82	  2.598269
 46.88	  4.626503
 46.94	  5.643654
 47	  7.651918
 47.06	  8.654194
 47.12	  2.651475
 47.18	 35.6476
 47.24	 18.6417
 47.3	 21.6971
 47.36	  6.911388
 47.42	  7.890034
 47.48	  0.942188
 47.54	  7.196145
 47.6	  3.391068
 47.66	  1.364846
 47.72	  6.245081
 47.78	  9.154760
 47.84	  5.014576
 47.9	  6.904547
 47.96	 31.7878
 48.02	 41.5608
 48.08	 32.2032
 48.14	 96.9258
 48.2	 34.7849
 48.26	 35.5991
 48.32	 29.4079
 48.38	  9.323173
 48.44	  1.166524
 48.5	  0.996161
 48.56	  5.827126
 48.62	  4.648067
 48.68	  2.421492
 48.74	  1.769285
 48.8	  4.955927
 48.86	  1.419216
 48.92	  0.030197
 48.98	  1.769739
 49.04	  4.550333
 49.1	  0.332490
 49.16	 21.1202
 49.22	 32.9183
 49.28	 10.7302
 49.34	 19.5649
 49.4	 16.4148
 49.46	 27.2736
 49.52	  1.860755
 49.58	 13.0085
 49.64	 20.8853
 49.7	 11.61
 49.76	  6.545958
 49.82	 30.4653
 49.88	 24.2956
 49.94	 42.8073
 50	 49.6106
 50.06	 36.5224
 50.12	 61.2866
 50.18	 22.2639
 50.24	 16.1255
 50.3	  4.192249
 50.36	  5.385284
 50.42	  6.415497
 50.48	 30.8367
 50.54	 18.4434
 50.6	 76.7291
 50.66	 38.7962
 50.72	 38.8065
 50.78	 19.9485
 50.84	 11.0475
 50.9	  4.256043
 50.96	  0.626166
 51.02	  2.490285
 51.08	 12.6151
 51.14	 87.7511
 51.2	 25.9019
 51.26	 36.1924
 51.32	 42.3649
 51.38	  9.544514
 51.44	  0.733928
 51.5	  1.929197
 51.56	  0.332083
 51.62	 11.5203
 51.68	  4.279516
 51.74	  2.131205
 51.8	  3.005292
 51.86	  7.139500
 51.92	  6.592464
 51.98	 10.7579
 52.04	  8.890124
 52.1	  6.017672
 52.16	 20.9362
 52.22	  5.059359
 52.28	 12.1813
 52.34	 14.3026
 52.4	  4.424613
 52.46	  2.787868
 52.52	 13.8983
 52.58	 15.0612
 52.64	  9.342024
 52.7	  8.426109
 52.76	  4.338818
 52.82	  0.419610
 52.88	  5.836443
 52.94	  5.589817
 53	  9.583890
 53.06	  2.657188
 53.12	  0.280908
 53.18	 20.7216
 53.24	 22.7731
 53.3	 37.7243
 53.36	 33.7786
 53.42	  8.839358
 53.48	 28.905
 53.54	  7.013060
 53.6	  0.823073
 53.66	  4.103048
 53.72	 15.1536
 53.78	  3.201128
 53.84	  0.759880
 53.9	  9.275561
 53.96	  8.103967
 54.02	  4.123266
 54.08	  4.176871
 54.14	 10.247
 54.2	  2.440905
 54.26	 13.5154
 54.32	 10.2877
 54.38	 31.3677
 54.44	  7.448734
 54.5	 17.6253
 54.56	  8.733741
 54.62	  4.184380
 54.68	  7.348113
 54.74	  5.439648
 54.8	  7.475114
 54.86	 11.3771
 54.92	 11.4747
 54.98	  9.516764
 55.04	 24.3896
 55.1	 15.4922
 55.16	 18.5985
 55.22	  9.777776
 55.28	  7.886843
 55.34	  1.016655
 55.4	  3.119822
 55.46	  1.214523
 55.52	 11.416
 55.58	  7.511251
 55.64	  4.602947
 55.7	  3.799585
 55.76	  3.878475
 55.82	  7.990627
 55.88	  8.036568
 55.94	  3.369409
 56	  5.304830
 56.06	  5.356565
 56.12	  9.558359
 56.18	  4.798478
 56.24	  9.824561
 56.3	  9.879903
 56.36	  6.933200
 56.42	  5.051946
 56.48	  0.947756
 56.54	  0.980193
 56.6	  6.905318
 56.66	  5.884686
 56.72	  3.809310
 56.78	  0.772679
 56.84	  0.731036
 56.9	  1.591126
 56.96	  0.485995
 57.02	  4.089061
 57.08	  2.052484
 57.14	  1.865250
 57.2	 15.7736
 57.26	  4.691013
 57.32	  4.599276
 57.38	  1.518730
 57.44	  8.415421
 57.5	  0.690898
 57.56	  6.213945
 57.62	  3.047162
 57.68	 10.851
 57.74	  2.751694
 57.8	  6.621151
 57.86	  7.526307
 57.92	  4.332081
 57.98	  7.241680
 58.04	  8.155690
 58.1	 19.9645
 58.16	 35.8322
 58.22	 13.7661
 58.28	 17.5702
 58.34	 15.3144
 58.4	  6.314316
 58.46	  3.526934
 58.52	  4.423066
 58.58	  9.166663
 58.64	  9.126932
 58.7	 19.731
 58.76	  9.796069
 58.82	 23.6647
 58.88	  4.650097
 58.94	  3.675650
 59	 15.6748
 59.06	 10.6774
 59.12	  9.840652
 59.18	 20.852
 59.24	 10.8664
 59.3	 10.8846
 59.36	 13.9077
 59.42	  6.962152
 59.48	  7.991753
 59.54	  4.030658
 59.6	  1.929968
 59.66	  3.099538
 59.72	  3.127740
 59.78	  2.143448
 59.84	 12.1803
 59.9	  2.206701
 59.96	  2.212161
 60.02	  7.594154
 60.08	  4.783195
 60.14	  8.798490
 60.2	  7.815718
 60.26	  2.165503
 60.32	  7.845945
 60.38	  8.862574
 60.44	  7.880077
 60.5	 20.897
 60.56	  0.086837
 60.62	 15.9264
 60.68	  8.939433
 60.74	  5.953718
 60.8	  6.812220
 60.86	  8.672767
 60.92	  1.587288
 60.98	 10.6158
 61.04	  3.642731
 61.1	  5.009769
 61.16	  6.063189
 61.22	  7.276270
 61.28	  6.279028
 61.34	 11.3013
 61.4	  3.410366
 61.46	 14.2496
 61.52	 10.4875
 61.58	  8.538491
 61.64	 17.5236
 61.7	 16.5147
 61.76	 14.4674
 61.82	  7.445307
 61.88	 15.5025
 61.94	 19.7735
 62	  8.050475
 62.06	  9.121732
 62.12	  6.196053
 62.18	  1.170698
 62.24	  0.147459
 62.3	  5.139605
 62.36	 11.7627
 62.42	  6.745169
 62.48	 10.5448
 62.54	  6.513504
 62.6	  0.473771
 62.66	  1.429348
 62.72	  2.381092
 62.78	 10.3202
 62.84	  8.254262
 62.9	  1.185090
 62.96	  5.113474
 63.02	  2.040293
 63.08	  6.962029
 63.14	  4.125569
 63.2	  2.760113
 63.26	  5.641350
 63.32	  6.527420
 63.38	  5.655176
 63.44	 21.1216
 63.5	 23.9657
 63.56	 19.8377
 63.62	  9.382220
 63.68	 21.2618
 63.74	 21.0857
 63.8	  7.848435
 63.86	 12.7316
 63.92	 28.3669
 63.98	 26.1885
 64.04	 12.0759
 64.1	 11.957
 64.16	 12.8507
 64.22	  7.747942
 64.28	 18.5684
 64.34	  3.903409
 64.4	  6.797541
 64.46	  3.633718
 64.52	  3.528218
 64.58	  2.588900
 64.64	  8.344597
 64.7	  9.387107
 64.76	  3.322212
 64.82	 10.2703
 64.88	 13.2254
 64.94	  6.187608
 65	  5.158514
 65.06	 12.136
 65.12	 33.1228
 65.18	 12.1207
 65.24	  6.130586
 65.3	 16.1852
 65.36	 11.2429
 65.42	 10.3013
 65.48	127.393
 65.54	 22.8009
 65.6	 13.1753
 65.66	 66.2581
 65.72	 18.2902
 65.78	 20.384
 65.84	  1.702019
 65.9	 10.3746
 65.96	 23.4532
 66.02	 12.5373
 66.08	 19.6249
 66.14	 10.7143
 66.2	 10.8072
 66.26	  4.913685
 66.32	  7.022781
 66.38	  5.359692
 66.44	  4.469123
 66.5	  1.577599
 66.56	  0.682222
 66.62	  0.784030
 66.68	  3.880485
 66.74	  0.034443
 66.8	  2.039164
 66.86	  3.101477
 66.92	  0.159819
 66.98	  4.207123
 67.04	 14.1634
 67.1	 10.1756
 67.16	 27.2354
 67.22	 11.4183
 67.28	 13.4481
 67.34	 24.4751
 67.4	 26.8657
 67.46	  7.128034
 67.52	 16.1441
 67.58	  5.152080
 67.64	  7.148017
 67.7	  5.101444
 67.76	 10.0538
 67.82	 17.0072
 67.88	 26.9335
 67.94	 16.7595
 68	  8.547930
 68.06	 10.5153
 68.12	 18.3292
 68.18	 13.1121
 68.24	 12.7634
 68.3	 11.7533
 68.36	  7.743616
 68.42	  2.726374
 68.48	  8.707647
 68.54	  8.689009
 68.6	  1.336463
 68.66	  2.615067
 68.72	  1.566031
 68.78	  5.290758
 68.84	 33.2446
 68.9	 10.2009
 68.96	  0.160970
 69.02	 16.1244
 69.08	 10.3727
 69.14	  2.484738
 69.2	  0.475181
 69.26	  6.453081
 69.32	  1.567417
 69.38	  2.570569
 69.44	 17.7593
 69.5	 35.7669
 69.56	 22.8098
 69.62	 43.6765
 69.68	 33.6993
 69.74	 20.7298
 69.8	 11.3087
 69.86	 25.1952
 69.92	 28.2387
 69.98	 37.2936
 70.04	 10.358
 70.1	 10.4272
 70.16	  7.500271
 70.22	  1.576994
 70.28	  8.650665
 70.34	  0.524565
 70.4	  2.499719
 70.46	  2.573421
 70.52	  5.648800
 70.58	  9.722503
 70.64	  3.804685
 70.7	  1.119181
 70.76	  4.079177
 70.82	  2.221222
 70.88	  9.469356
 70.94	 16.7279
 71	 21.8215
 71.06	  6.927275
 71.12	 13.0697
 71.18	  3.337039
 71.24	  5.539082
 71.3	  6.638185
 71.36	 13.7365
 71.42	  4.866860
 71.48	 18.8417
 71.54	 10.7947
 71.6	  3.871033
 71.66	  4.063290
 71.72	  3.060595
 71.78	  1.134184
 71.84	 11.1769
 71.9	 10.4147
 71.96	  0.483374
 72.02	  1.456907
 72.08	 13.6552
 72.14	  3.693117
 72.2	  4.725094
 72.26	  7.752184
 72.32	  2.206975
 72.38	  3.890388
 72.44	  6.887847
 72.5	 10.8797
 72.56	  7.866961
 72.62	  5.849331
 72.68	  5.829173
 72.74	  3.775068
 72.8	  5.745956
 72.86	  6.710598
 72.92	 13.6731
 72.98	  2.632333
 73.04	  2.423304
 73.1	  3.516208
 73.16	  1.326830
 73.22	  4.091520
 73.28	  1.092122
 73.34	  1.848766
 73.4	  4.773467
 73.46	 11.701
 73.52	 11.4254
 73.58	  0.352840
 73.64	  9.178634
 73.7	  8.110234
 73.76	  5.041302
 73.82	  8.938906
 73.88	 10.7108
 73.94	  9.650053
 74	 15.6038
 74.06	  6.577839
 74.12	  8.485692
 74.18	  8.438819
 74.24	  6.076000
 74.3	 12.9909
 74.36	  9.000584
 74.42	  1.984431
 74.48	  2.929299
 74.54	  1.912225
 74.6	  7.898977
 74.66	 13.1734
 74.72	 14.1492
 74.78	 26.0623
 74.84	 23.2781
 74.9	 15.3031
 74.96	 20.3335
 75.02	 17.3676
 75.08	  9.409657
 75.14	  0.322834
 75.2	  1.268983
 75.26	  7.785104
 75.32	  1.840241
 75.38	  1.977407
 75.44	  6.041006
 75.5	  6.147725
 75.56	  2.220949
 75.62	  7.206966
 75.68	  9.248069
 75.74	 10.322
 75.8	  4.601835
 75.86	  6.460950
 75.92	  2.525146
 75.98	  3.687726
 76.04	  1.109744
 76.1	  3.266589
 76.16	  6.323027
 76.22	  6.384625
 76.28	  5.597817
 76.34	  8.729189
 76.4	  5.715956
 76.46	  6.696556
 76.52	  0.257539
 76.58	  5.783878
 76.64	  4.821165
 76.7	  7.856528
 76.76	 16.8461
 76.82	  9.835295
 76.88	  7.869749
 76.94	  5.905170
 77	  5.655180
 77.06	  3.687728
 77.12	  0.718773
 77.18	  0.745765
 77.24	  1.559940
 77.3	  5.562814
 77.36	 16.5626
 77.42	  5.844963
 77.48	  1.164214
 77.54	 10.6034
 77.6	 13.6869
 77.66	 11.6733
 77.72	 12.6198
 77.78	  5.567908
 77.84	 13.5829
 77.9	 18.5345
 77.96	  7.522068
 78.02	  5.658541
 78.08	  8.730579
 78.14	  5.752205
 78.2	  9.757658
 78.26	 15.7614
 78.32	 12.7666
 78.38	  3.677202
 78.44	 17.3869
 78.5	 13.3537
 78.56	  4.625134
 78.62	  3.382818
 78.68	  3.153869
 78.74	  1.171507
 78.8	  4.194727
 78.86	 19.2511
 78.92	  4.282575
 78.98	  5.317129
 79.04	  7.353614
 79.1	  8.391422
 79.16	  9.432337
 79.22	  6.479648
 79.28	  6.521877
 79.34	  3.761977
 79.4	  4.800916
 79.46	  5.840131
 79.52	  7.941513
 79.58	  2.167979
 79.64	  0.280223
 79.7	  2.333220
 79.76	  7.098860
 79.82	  0.205997
 79.88	  3.259738
 79.94	  6.315363
 80	  8.695619
 80.06	  8.804798
 80.12	 10.859
 80.18	  2.913191
 80.24	  6.938733
 80.3	 17.9925
 80.36	 10.2837
 80.42	 11.2376
 80.48	  7.204851
 80.54	  6.215658
 80.6	  7.241980
 80.66	  9.275350
 80.72	  3.304701
 80.78	  7.330709
 80.84	  3.294456
 80.9	  5.260991
 80.96	  8.274082
 81.02	  1.291956
 81.08	  2.306971
 81.14	  5.320526
 81.2	  1.319817
 81.26	  7.285508
 81.32	 12.4206
 81.38	  3.424269
 81.44	  4.430135
 81.5	  2.424330
 81.56	  2.412911
 81.62	 10.391
 81.68	 10.3719
 81.74	  7.154441
 81.8	  9.151977
 81.86	  4.142265
 81.92	 11.0752
 81.98	  4.884942
 82.04	 14.8799
 82.1	 10.8733
 82.16	  4.870121
 82.22	 11.8735
 82.28	 11.8703
 82.34	  8.867020
 82.4	  4.502962
 82.46	 11.5098
 82.52	 10.5028
 82.58	 15.7591
 82.64	  4.755390
 82.7	  8.750844
 82.76	 21.5035
 82.82	 17.4503
 82.88	  5.513564
 82.94	 11.6471
 83	  8.775818
 83.06	 12.9672
 83.12	 11.035
 83.18	 10.0427
 83.24	  6.049465
 83.3	  6.058916
 83.36	  6.068446
 83.42	 11.0768
 83.48	  3.084619
 83.54	  4.094180
 83.6	  0.889086
 83.66	  4.125177
 83.72	  0.001580
 83.78	  0.003764
 83.84	  0.000079
 83.9	  5.004523
 83.96	  0.012488
 84.02	  0.027268
 84.08	  2.044903
 84.14	  2.059303
 84.2	  3.057754
 84.26	  0.941527
 84.32	  5.051088
 84.38	  9.043958
 84.44	  6.107287
 84.5	  5.104661
 84.56	 19.1026
 84.62	  9.036333
 84.68	  3.098851
 84.74	 11.0997
 84.8	 19.9721
 84.86	  6.971193
 84.92	  5.088664
 84.98	  3.829686
 85.04	  8.831013
 85.1	 11.8387
 85.16	  4.887319
 85.22	  4.141671
 85.28	 12.1259
 85.34	 19.0045
 85.4	  4.925423
 85.46	  9.684080
 85.52	  8.699332
 85.58	  5.713324
 85.64	  4.884181
 85.7	  9.925073
 85.76	  9.942824
 85.82	  0.035008
 85.88	  1.989627
 85.94	  1.012824
 86	  8.057912
 86.06	  1.912827
 86.12	  3.111675
 86.18	  8.150378
 86.24	  2.174951
 86.3	  4.272061
 86.36	  3.366516
 86.42	  5.400041
 86.48	  7.427243
 86.54	  0.542871
 86.6	  6.489106
 86.66	  1.528518
 86.72	  5.572688
 86.78	 12.6604
 86.84	  5.612030
 86.9	  1.652395
 86.96	  2.693624
 87.02	  5.863572
 87.08	  3.849415
 87.14	  2.895083
 87.2	  1.942440
 87.26	  7.873302
 87.32	  0.077081
 87.38	  5.984334
 87.44	  9.035210
 87.5	  3.084428
 87.56	  8.098535
 87.62	  7.966686
 87.68	  1.978007
 87.74	  1.999547
 87.8	 10.0531
 87.86	  3.163014
 87.92	  4.216205
 87.98	  5.322621
 88.04	  6.226135
 88.1	  9.265800
 88.16	  4.323408
 88.22	  6.460528
 88.28	  0.523037
 88.34	  3.594351
 88.4	  3.631388
 88.46	  7.695797
 88.52	  5.750382
 88.58	  4.806454
 88.64	  3.880118
 88.7	  3.876616
 88.76	  1.063591
 88.82	  0.928857
 88.88	  0.024644
 88.94	  2.124374
 89	  1.175594
 89.06	 10.2325
 89.12	  1.166940
 89.18	  1.265581
 89.24	  2.369772
 89.3	  3.459408
 89.36	  5.577269
 89.42	 15.5535
 89.48	  7.664916
 89.54	 12.6493
 89.6	 15.6214
 89.66	  6.715484
 89.72	  5.477224
 89.78	 11.4716
 89.84	  9.484256
 89.9	  0.477576
 89.96	  2.487749
 90	  0.000000